date	time	subject	trialcode	stimulusnumber1	stimulusitem1	response	latency
021616	22:12:10	167147374	oferta_C	2	1659.jpg	4	3085
021616	22:12:10	167147374	oferta_C	5	2054_.jpg	8	2669
021616	22:12:10	167147374	oferta_C	6	2100_.jpg	9	1827
021616	22:12:10	167147374	oferta_C	4	2018.jpg	5	2652
021616	22:12:10	167147374	oferta_C	3	1700.jpg	5	2503
021616	22:12:10	167147374	oferta_C	1	1616_.jpg	8	1668
021616	22:14:59	167147374	oferta_A	3	1700_.jpg	7	1907
021616	22:14:59	167147374	oferta_A	6	2100.jpg	7	3053
021616	22:14:59	167147374	oferta_A	1	1600.jpg	6	2228
021616	22:14:59	167147374	oferta_A	5	2054.jpg	5	2546
021616	22:14:59	167147374	oferta_A	4	2018_.jpg	7	1731
021616	22:14:59	167147374	oferta_A	2	1650_.jpg	6	2127
021616	22:16:49	167147374	oferta_D	5	2050.jpg	4	1901
021616	22:16:49	167147374	oferta_D	1	1600_.jpg	5	1440
021616	22:16:49	167147374	oferta_D	6	2111_.jpg	9	2228
021616	22:16:49	167147374	oferta_D	2	1659_.jpg	7	1929
021616	22:16:49	167147374	oferta_D	4	2000.jpg	7	4893
021616	22:16:49	167147374	oferta_D	3	1721.jpg	6	5250
021616	22:17:39	167147374	oferta_C	6	2100_.jpg	8	1983
021616	22:17:39	167147374	oferta_C	3	1700.jpg	4	2216
021616	22:17:39	167147374	oferta_C	2	1659.jpg	3	2397
021616	22:17:39	167147374	oferta_C	1	1616_.jpg	7	2984
021616	22:17:39	167147374	oferta_C	4	2018.jpg	8	3281
021616	22:17:39	167147374	oferta_C	5	2054_.jpg	9	1620
021616	22:18:43	167147374	oferta_D	1	1600_.jpg	6	1397
021616	22:18:43	167147374	oferta_D	5	2050.jpg	8	2645
021616	22:18:43	167147374	oferta_D	2	1659_.jpg	7	1772
021616	22:18:43	167147374	oferta_D	4	2000.jpg	6	2622
021616	22:18:43	167147374	oferta_D	6	2111_.jpg	9	1884
021616	22:18:43	167147374	oferta_D	3	1721.jpg	5	2173
021616	22:22:14	167147374	oferta_A	5	2054.jpg	7	3551
021616	22:22:14	167147374	oferta_A	4	2018_.jpg	7	5487
021616	22:22:14	167147374	oferta_A	1	1600.jpg	5	1553
021616	22:22:14	167147374	oferta_A	2	1650_.jpg	6	1574
021616	22:22:14	167147374	oferta_A	3	1700_.jpg	7	1462
021616	22:22:14	167147374	oferta_A	6	2100.jpg	7	2134
021616	22:23:20	167147374	oferta_D	1	1600_.jpg	7	1503
021616	22:23:20	167147374	oferta_D	5	2050.jpg	5	1513
021616	22:23:20	167147374	oferta_D	3	1721.jpg	6	1609
021616	22:23:20	167147374	oferta_D	2	1659_.jpg	7	1821
021616	22:23:20	167147374	oferta_D	6	2111_.jpg	9	1347
021616	22:23:20	167147374	oferta_D	4	2000.jpg	8	2064
021616	22:24:12	167147374	oferta_B	3	1721_.jpg	7	3488
021616	22:24:12	167147374	oferta_B	4	2000_.jpg	8	2288
021616	22:24:12	167147374	oferta_B	2	1650.jpg	5	1804
021616	22:24:12	167147374	oferta_B	1	1616.jpg	3	1978
021616	22:24:12	167147374	oferta_B	5	2050_.jpg	7	2285
021616	22:24:12	167147374	oferta_B	6	2111.jpg	8	1884
021616	22:25:02	167147374	oferta_A	2	1650_.jpg	6	3173
021616	22:25:02	167147374	oferta_A	4	2018_.jpg	8	1714
021616	22:25:02	167147374	oferta_A	5	2054.jpg	9	3526
021616	22:25:02	167147374	oferta_A	1	1600.jpg	4	2210
021616	22:25:02	167147374	oferta_A	3	1700_.jpg	7	2516
021616	22:25:02	167147374	oferta_A	6	2100.jpg	8	2072
021616	22:25:59	167147374	oferta_D	2	1659_.jpg	7	1532
021616	22:25:59	167147374	oferta_D	3	1721.jpg	8	1321
021616	22:25:59	167147374	oferta_D	5	2050.jpg	9	2207
021616	22:25:59	167147374	oferta_D	4	2000.jpg	7	3036
021616	22:25:59	167147374	oferta_D	1	1600_.jpg	6	3075
021616	22:25:59	167147374	oferta_D	6	2111_.jpg	10	1669
021616	22:27:15	167147374	oferta_A	3	1700_.jpg	7	1257
021616	22:27:15	167147374	oferta_A	4	2018_.jpg	8	1282
021616	22:27:15	167147374	oferta_A	5	2054.jpg	7	2595
021616	22:27:15	167147374	oferta_A	1	1600.jpg	5	2322
021616	22:27:15	167147374	oferta_A	6	2100.jpg	7	1913
021616	22:27:15	167147374	oferta_A	2	1650_.jpg	7	3884
021616	22:28:21	167147374	oferta_D	5	2050.jpg	7	1558
021616	22:28:21	167147374	oferta_D	6	2111_.jpg	9	2417
021616	22:28:21	167147374	oferta_D	4	2000.jpg	8	1438
021616	22:28:21	167147374	oferta_D	3	1721.jpg	5	2022
021616	22:28:21	167147374	oferta_D	1	1600_.jpg	6	1536
021616	22:28:21	167147374	oferta_D	2	1659_.jpg	8	1800
020216	20:51:07	21702859	oferta_A	4	2018_.jpg	8	4085
020216	20:51:07	21702859	oferta_A	2	1650_.jpg	5	4368
020216	20:51:07	21702859	oferta_A	1	1600.jpg	4	4656
020216	20:51:07	21702859	oferta_A	3	1700_.jpg	5	2845
020216	20:51:07	21702859	oferta_A	5	2054.jpg	8	3473
020216	20:51:07	21702859	oferta_A	6	2100.jpg	9	2732
021716	12:05:47	224625879	oferta_C	6	2100_.jpg	8	4560
021716	12:05:47	224625879	oferta_C	2	1659.jpg	5	2271
021716	12:05:47	224625879	oferta_C	4	2018.jpg	7	2793
021716	12:05:47	224625879	oferta_C	5	2054_.jpg	8	2395
021716	12:05:47	224625879	oferta_C	1	1616_.jpg	6	2300
021716	12:05:47	224625879	oferta_C	3	1700.jpg	5	3928
021716	12:06:35	224625879	oferta_A	5	2054.jpg	7	1231
021716	12:06:35	224625879	oferta_A	1	1600.jpg	3	4158
021716	12:06:35	224625879	oferta_A	3	1700_.jpg	5	1681
021716	12:06:35	224625879	oferta_A	2	1650_.jpg	4	2489
021716	12:06:35	224625879	oferta_A	6	2100.jpg	7	2124
021716	12:06:35	224625879	oferta_A	4	2018_.jpg	6	1988
021716	12:07:34	224625879	oferta_B	6	2111.jpg	8	1569
021716	12:07:34	224625879	oferta_B	5	2050_.jpg	8	1519
021716	12:07:34	224625879	oferta_B	1	1616.jpg	4	1888
021716	12:07:34	224625879	oferta_B	2	1650.jpg	5	1649
021716	12:07:34	224625879	oferta_B	4	2000_.jpg	7	2672
021716	12:07:34	224625879	oferta_B	3	1721_.jpg	6	1787
021716	12:08:15	224625879	oferta_B	2	1650.jpg	5	2456
021716	12:08:15	224625879	oferta_B	1	1616.jpg	3	1428
021716	12:08:15	224625879	oferta_B	3	1721_.jpg	7	3121
021716	12:08:15	224625879	oferta_B	4	2000_.jpg	9	1509
021716	12:08:15	224625879	oferta_B	5	2050_.jpg	10	1206
021716	12:08:15	224625879	oferta_B	6	2111.jpg	11	1460
021716	12:08:59	224625879	oferta_B	2	1650.jpg	5	3289
021716	12:08:59	224625879	oferta_B	4	2000_.jpg	8	1337
021716	12:08:59	224625879	oferta_B	6	2111.jpg	9	2210
021716	12:08:59	224625879	oferta_B	5	2050_.jpg	9	2449
021716	12:08:59	224625879	oferta_B	1	1616.jpg	3	1928
021716	12:08:59	224625879	oferta_B	3	1721_.jpg	5	3839
021716	12:12:58	224625879	oferta_D	4	2000.jpg	7	2125
021716	12:12:58	224625879	oferta_D	6	2111_.jpg	10	2473
021716	12:12:58	224625879	oferta_D	2	1659_.jpg	7	1955
021716	12:12:58	224625879	oferta_D	1	1600_.jpg	5	2183
021716	12:12:58	224625879	oferta_D	5	2050.jpg	6	2266
021716	12:12:58	224625879	oferta_D	3	1721.jpg	3	2464
021716	12:15:46	224625879	oferta_A	3	1700_.jpg	7	1541
021716	12:15:46	224625879	oferta_A	4	2018_.jpg	9	1543
021716	12:15:46	224625879	oferta_A	1	1600.jpg	5	1714
021716	12:15:46	224625879	oferta_A	5	2054.jpg	7	2073
021716	12:15:46	224625879	oferta_A	2	1650_.jpg	7	1971
021716	12:15:46	224625879	oferta_A	6	2100.jpg	9	1932
021716	12:16:22	224625879	oferta_C	1	1616_.jpg	7	1311
021716	12:16:22	224625879	oferta_C	6	2100_.jpg	10	1868
021716	12:16:22	224625879	oferta_C	5	2054_.jpg	9	1361
021716	12:16:22	224625879	oferta_C	4	2018.jpg	8	2476
021716	12:16:22	224625879	oferta_C	2	1659.jpg	3	1534
021716	12:16:22	224625879	oferta_C	3	1700.jpg	4	1305
021716	12:16:58	224625879	oferta_B	1	1616.jpg	4	2156
021716	12:16:58	224625879	oferta_B	6	2111.jpg	7	1498
021716	12:16:58	224625879	oferta_B	3	1721_.jpg	6	1671
021716	12:16:58	224625879	oferta_B	2	1650.jpg	5	3054
021716	12:16:58	224625879	oferta_B	5	2050_.jpg	8	1269
021716	12:16:58	224625879	oferta_B	4	2000_.jpg	7	2176
021716	12:17:40	224625879	oferta_D	3	1721.jpg	8	1029
021716	12:17:40	224625879	oferta_D	1	1600_.jpg	5	1732
021716	12:17:40	224625879	oferta_D	2	1659_.jpg	6	2077
021716	12:17:40	224625879	oferta_D	5	2050.jpg	8	2003
021716	12:17:40	224625879	oferta_D	6	2111_.jpg	11	1631
021716	12:17:40	224625879	oferta_D	4	2000.jpg	9	1109
021716	12:18:21	224625879	oferta_C	5	2054_.jpg	9	1787
021716	12:18:21	224625879	oferta_C	1	1616_.jpg	4	1574
021716	12:18:21	224625879	oferta_C	4	2018.jpg	8	1326
021716	12:18:21	224625879	oferta_C	2	1659.jpg	5	1474
021716	12:18:21	224625879	oferta_C	3	1700.jpg	6	1422
021716	12:18:21	224625879	oferta_C	6	2100_.jpg	10	1740
011616	13:31:56	233018069	oferta_B	4	2000_.jpg	9	8097
011616	13:31:56	233018069	oferta_B	3	1721_.jpg	4	3963
011616	13:31:56	233018069	oferta_B	6	2111.jpg	7	3338
011616	13:31:56	233018069	oferta_B	1	1616.jpg	3	2762
011616	13:31:56	233018069	oferta_B	5	2050_.jpg	8	3202
011616	13:31:56	233018069	oferta_B	2	1650.jpg	2	4750
012716	20:30:55	237152360	oferta_B	2	1650.jpg	5	7795
012716	20:30:55	237152360	oferta_B	4	2000_.jpg	5	4949
012716	20:30:55	237152360	oferta_B	3	1721_.jpg	5	2006
012716	20:30:55	237152360	oferta_B	1	1616.jpg	5	1055
012716	20:30:55	237152360	oferta_B	5	2050_.jpg	5	1159
012716	20:30:55	237152360	oferta_B	6	2111.jpg	5	2772
011616	14:11:18	26579209	oferta_C	5	2054_.jpg	9	1835
011616	14:11:18	26579209	oferta_C	3	1700.jpg	5	1580
011616	14:11:18	26579209	oferta_C	4	2018.jpg	10	1361
011616	14:11:18	26579209	oferta_C	1	1616_.jpg	6	1413
011616	14:11:18	26579209	oferta_C	6	2100_.jpg	11	1315
011616	14:11:18	26579209	oferta_C	2	1659.jpg	5	1495
021816	17:28:17	278454601	oferta_B	5	2050_.jpg	10	3113
021816	17:28:17	278454601	oferta_B	3	1721_.jpg	3	3267
021816	17:28:17	278454601	oferta_B	2	1650.jpg	1	2963
021816	17:28:17	278454601	oferta_B	4	2000_.jpg	11	3134
021816	17:28:17	278454601	oferta_B	1	1616.jpg	2	2559
021816	17:28:17	278454601	oferta_B	6	2111.jpg	10	2282
021816	17:35:42	278454601	oferta_A	1	1600.jpg	1	3585
021816	17:35:42	278454601	oferta_A	5	2054.jpg	8	3608
021816	17:35:42	278454601	oferta_A	2	1650_.jpg	3	2531
021816	17:35:42	278454601	oferta_A	3	1700_.jpg	4	2133
021816	17:35:42	278454601	oferta_A	6	2100.jpg	9	3718
021816	17:35:42	278454601	oferta_A	4	2018_.jpg	10	3042
021816	17:40:45	278454601	oferta_C	6	2100_.jpg	10	15143
021816	17:40:45	278454601	oferta_C	4	2018.jpg	10	11649
021816	17:40:45	278454601	oferta_C	5	2054_.jpg	11	10990
021816	17:40:45	278454601	oferta_C	3	1700.jpg	2	7742
021816	17:40:45	278454601	oferta_C	1	1616_.jpg	3	8380
021816	17:40:45	278454601	oferta_C	2	1659.jpg	3	9619
021816	17:42:29	278454601	oferta_D	2	1659_.jpg	4	2772
021816	17:42:29	278454601	oferta_D	3	1721.jpg	3	2417
021816	17:42:29	278454601	oferta_D	1	1600_.jpg	2	2167
021816	17:42:29	278454601	oferta_D	6	2111_.jpg	11	2380
021816	17:42:29	278454601	oferta_D	4	2000.jpg	9	3555
021816	17:42:29	278454601	oferta_D	5	2050.jpg	9	1665
021816	17:46:12	278454601	oferta_B	5	2050_.jpg	9	3634
021816	17:46:12	278454601	oferta_B	1	1616.jpg	2	2590
021816	17:46:12	278454601	oferta_B	3	1721_.jpg	4	2393
021816	17:46:12	278454601	oferta_B	2	1650.jpg	3	2814
021816	17:46:12	278454601	oferta_B	6	2111.jpg	9	3181
021816	17:46:12	278454601	oferta_B	4	2000_.jpg	10	5253
021816	17:52:45	278454601	oferta_A	2	1650_.jpg	4	3031
021816	17:52:45	278454601	oferta_A	6	2100.jpg	9	1769
021816	17:52:45	278454601	oferta_A	1	1600.jpg	2	2638
021816	17:52:45	278454601	oferta_A	3	1700_.jpg	4	1814
021816	17:52:45	278454601	oferta_A	4	2018_.jpg	8	2186
021816	17:52:45	278454601	oferta_A	5	2054.jpg	9	2216
021816	17:53:54	278454601	oferta_A	6	2100.jpg	9	3456
021816	17:53:54	278454601	oferta_A	4	2018_.jpg	8	1846
021816	17:53:54	278454601	oferta_A	5	2054.jpg	9	2070
021816	17:53:54	278454601	oferta_A	2	1650_.jpg	2	3192
021816	17:53:54	278454601	oferta_A	3	1700_.jpg	3	2206
021816	17:53:54	278454601	oferta_A	1	1600.jpg	1	1788
021816	17:55:15	278454601	oferta_A	1	1600.jpg	1	2703
021816	17:55:15	278454601	oferta_A	3	1700_.jpg	3	2413
021816	17:55:15	278454601	oferta_A	6	2100.jpg	10	2586
021816	17:55:15	278454601	oferta_A	2	1650_.jpg	2	2499
021816	17:55:15	278454601	oferta_A	5	2054.jpg	8	4057
021816	17:55:15	278454601	oferta_A	4	2018_.jpg	7	2207
021816	17:58:01	278454601	oferta_A	4	2018_.jpg	9	3065
021816	17:58:01	278454601	oferta_A	5	2054.jpg	9	2822
021816	17:58:01	278454601	oferta_A	1	1600.jpg	1	2517
021816	17:58:01	278454601	oferta_A	2	1650_.jpg	3	1996
021816	17:58:01	278454601	oferta_A	6	2100.jpg	9	2419
021816	17:58:01	278454601	oferta_A	3	1700_.jpg	4	2941
021816	17:58:55	278454601	oferta_C	6	2100_.jpg	10	4005
021816	17:58:55	278454601	oferta_C	3	1700.jpg	3	1796
021816	17:58:55	278454601	oferta_C	4	2018.jpg	8	1976
021816	17:58:55	278454601	oferta_C	2	1659.jpg	1	2319
021816	17:58:55	278454601	oferta_C	1	1616_.jpg	2	1865
021816	17:58:55	278454601	oferta_C	5	2054_.jpg	10	2150
021816	18:01:30	278454601	oferta_B	4	2000_.jpg	9	2783
021816	18:01:30	278454601	oferta_B	3	1721_.jpg	5	5606
021816	18:01:30	278454601	oferta_B	6	2111.jpg	8	2128
021816	18:01:30	278454601	oferta_B	1	1616.jpg	2	3339
021816	18:01:30	278454601	oferta_B	2	1650.jpg	3	1816
021816	18:01:30	278454601	oferta_B	5	2050_.jpg	9	2052
021816	18:10:02	278454601	oferta_C	1	1616_.jpg	3	2340
021816	18:10:02	278454601	oferta_C	5	2054_.jpg	10	3431
021816	18:10:02	278454601	oferta_C	2	1659.jpg	2	4453
021816	18:10:02	278454601	oferta_C	4	2018.jpg	9	2406
021816	18:10:02	278454601	oferta_C	6	2100_.jpg	11	1970
021816	18:10:02	278454601	oferta_C	3	1700.jpg	3	3195
021816	18:11:41	278454601	oferta_C	4	2018.jpg	9	3835
021816	18:11:41	278454601	oferta_C	6	2100_.jpg	11	2122
021816	18:11:41	278454601	oferta_C	3	1700.jpg	2	3237
021816	18:11:41	278454601	oferta_C	5	2054_.jpg	10	2528
021816	18:11:41	278454601	oferta_C	1	1616_.jpg	1	2233
021816	18:11:41	278454601	oferta_C	2	1659.jpg	2	1887
021816	18:12:37	278454601	oferta_A	2	1650_.jpg	2	2751
021816	18:12:37	278454601	oferta_A	4	2018_.jpg	10	1836
021816	18:12:37	278454601	oferta_A	6	2100.jpg	11	1951
021816	18:12:37	278454601	oferta_A	1	1600.jpg	1	2931
021816	18:12:37	278454601	oferta_A	5	2054.jpg	8	1988
021816	18:12:37	278454601	oferta_A	3	1700_.jpg	4	4783
021816	18:27:23	278454601	oferta_D	2	1659_.jpg	1	2026
021816	18:27:23	278454601	oferta_D	3	1721.jpg	2	2206
021816	18:27:23	278454601	oferta_D	6	2111_.jpg	11	2133
021816	18:27:23	278454601	oferta_D	5	2050.jpg	9	1949
021816	18:27:23	278454601	oferta_D	4	2000.jpg	8	1698
021816	18:27:23	278454601	oferta_D	1	1600_.jpg	1	2478
021816	18:28:09	278454601	oferta_D	1	1600_.jpg	1	3475
021816	18:28:09	278454601	oferta_D	5	2050.jpg	10	1953
021816	18:28:09	278454601	oferta_D	6	2111_.jpg	11	1796
021816	18:28:09	278454601	oferta_D	3	1721.jpg	4	4102
021816	18:28:09	278454601	oferta_D	2	1659_.jpg	3	1592
021816	18:28:09	278454601	oferta_D	4	2000.jpg	9	3163
021816	18:30:15	278454601	oferta_B	2	1650.jpg	3	3009
021816	18:30:15	278454601	oferta_B	6	2111.jpg	10	4083
021816	18:30:15	278454601	oferta_B	4	2000_.jpg	9	2591
021816	18:30:15	278454601	oferta_B	5	2050_.jpg	10	2140
021816	18:30:15	278454601	oferta_B	1	1616.jpg	1	2987
021816	18:30:15	278454601	oferta_B	3	1721_.jpg	3	1982
021816	18:37:31	278454601	oferta_C	6	2100_.jpg	11	2915
021816	18:37:31	278454601	oferta_C	5	2054_.jpg	11	2713
021816	18:37:31	278454601	oferta_C	2	1659.jpg	1	1836
021816	18:37:31	278454601	oferta_C	1	1616_.jpg	1	906
021816	18:37:31	278454601	oferta_C	4	2018.jpg	9	3081
021816	18:37:31	278454601	oferta_C	3	1700.jpg	2	2320
021816	18:40:17	278454601	oferta_D	6	2111_.jpg	11	2361
021816	18:40:17	278454601	oferta_D	5	2050.jpg	9	3506
021816	18:40:17	278454601	oferta_D	4	2000.jpg	8	1780
021816	18:40:17	278454601	oferta_D	3	1721.jpg	4	2490
021816	18:40:17	278454601	oferta_D	2	1659_.jpg	2	2347
021816	18:40:17	278454601	oferta_D	1	1600_.jpg	1	1507
021816	18:41:09	278454601	oferta_D	3	1721.jpg	4	2788
021816	18:41:09	278454601	oferta_D	6	2111_.jpg	11	2484
021816	18:41:09	278454601	oferta_D	2	1659_.jpg	2	2601
021816	18:41:09	278454601	oferta_D	4	2000.jpg	8	1879
021816	18:41:09	278454601	oferta_D	1	1600_.jpg	1	1823
021816	18:41:09	278454601	oferta_D	5	2050.jpg	8	3995
021816	18:45:02	278454601	oferta_D	5	2050.jpg	10	4225
021816	18:45:02	278454601	oferta_D	3	1721.jpg	3	2183
021816	18:45:02	278454601	oferta_D	4	2000.jpg	8	2214
021816	18:45:02	278454601	oferta_D	1	1600_.jpg	1	2005
021816	18:45:02	278454601	oferta_D	6	2111_.jpg	11	2297
021816	18:45:02	278454601	oferta_D	2	1659_.jpg	2	2355
021816	18:46:07	278454601	oferta_A	2	1650_.jpg	3	1795
021816	18:46:07	278454601	oferta_A	3	1700_.jpg	4	2242
021816	18:46:07	278454601	oferta_A	5	2054.jpg	9	3176
021816	18:46:07	278454601	oferta_A	4	2018_.jpg	8	1867
021816	18:46:07	278454601	oferta_A	1	1600.jpg	1	2407
021816	18:46:07	278454601	oferta_A	6	2100.jpg	9	1816
020916	21:27:11	286781140	oferta_A	1	1600.jpg	5	6264
020916	21:27:11	286781140	oferta_A	6	2100.jpg	7	1837
020916	21:27:11	286781140	oferta_A	3	1700_.jpg	5	1986
020916	21:27:11	286781140	oferta_A	2	1650_.jpg	5	1859
020916	21:27:11	286781140	oferta_A	5	2054.jpg	8	2166
020916	21:27:11	286781140	oferta_A	4	2018_.jpg	8	1684
020916	21:41:40	307997270	oferta_C	2	1659.jpg	6	4946
020916	21:41:40	307997270	oferta_C	4	2018.jpg	5	3517
020916	21:41:40	307997270	oferta_C	1	1616_.jpg	5	4889
020916	21:41:40	307997270	oferta_C	6	2100_.jpg	7	2195
020916	21:41:40	307997270	oferta_C	3	1700.jpg	6	2644
020916	21:41:40	307997270	oferta_C	5	2054_.jpg	8	1938
020816	19:01:12	330267277	oferta_D	2	1659_.jpg	4	15397
020816	19:01:12	330267277	oferta_D	1	1600_.jpg	3	2458
020816	19:01:12	330267277	oferta_D	6	2111_.jpg	7	4109
020816	19:01:12	330267277	oferta_D	4	2000.jpg	7	2796
020816	19:01:12	330267277	oferta_D	5	2050.jpg	8	5376
020816	19:01:12	330267277	oferta_D	3	1721.jpg	6	3128
020416	09:57:02	335695156	oferta_C	6	2100_.jpg	8	2526
020416	09:57:02	335695156	oferta_C	5	2054_.jpg	8	2531
020416	09:57:02	335695156	oferta_C	4	2018.jpg	8	2399
020416	09:57:02	335695156	oferta_C	2	1659.jpg	8	2729
020416	09:57:02	335695156	oferta_C	3	1700.jpg	8	1686
020416	09:57:02	335695156	oferta_C	1	1616_.jpg	8	1752
021816	21:54:48	358705615	oferta_B	6	2111.jpg	3	1472
021816	21:54:48	358705615	oferta_B	4	2000_.jpg	5	1370
021816	21:54:48	358705615	oferta_B	3	1721_.jpg	4	1020
021816	21:54:48	358705615	oferta_B	1	1616.jpg	5	906
021816	21:54:48	358705615	oferta_B	5	2050_.jpg	5	1051
021816	21:54:48	358705615	oferta_B	2	1650.jpg	6	1191
021816	21:58:55	358705615	oferta_D	3	1721.jpg	6	1132
021816	21:58:55	358705615	oferta_D	5	2050.jpg	7	1074
021816	21:58:55	358705615	oferta_D	1	1600_.jpg	6	827
021816	21:58:55	358705615	oferta_D	4	2000.jpg	7	539
021816	21:58:55	358705615	oferta_D	2	1659_.jpg	6	721
021816	21:58:55	358705615	oferta_D	6	2111_.jpg	7	684
021816	21:59:36	358705615	oferta_B	6	2111.jpg	10	1750
021816	21:59:36	358705615	oferta_B	5	2050_.jpg	9	1462
021816	21:59:36	358705615	oferta_B	3	1721_.jpg	9	1242
021816	21:59:36	358705615	oferta_B	1	1616.jpg	7	2236
021816	21:59:36	358705615	oferta_B	2	1650.jpg	8	1569
021816	21:59:36	358705615	oferta_B	4	2000_.jpg	11	1519
021816	22:00:21	358705615	oferta_C	3	1700.jpg	6	2444
021816	22:00:21	358705615	oferta_C	6	2100_.jpg	11	1621
021816	22:00:21	358705615	oferta_C	1	1616_.jpg	7	2466
021816	22:00:21	358705615	oferta_C	2	1659.jpg	5	1635
021816	22:00:21	358705615	oferta_C	5	2054_.jpg	10	1612
021816	22:00:21	358705615	oferta_C	4	2018.jpg	8	3438
021816	22:01:09	358705615	oferta_C	5	2054_.jpg	7	725
021816	22:01:09	358705615	oferta_C	2	1659.jpg	6	1243
021816	22:01:09	358705615	oferta_C	6	2100_.jpg	8	1435
021816	22:01:09	358705615	oferta_C	1	1616_.jpg	7	1660
021816	22:01:09	358705615	oferta_C	4	2018.jpg	8	1155
021816	22:01:09	358705615	oferta_C	3	1700.jpg	6	2152
021816	22:02:06	358705615	oferta_B	6	2111.jpg	7	1657
021816	22:02:06	358705615	oferta_B	3	1721_.jpg	7	1123
021816	22:02:06	358705615	oferta_B	5	2050_.jpg	7	819
021816	22:02:06	358705615	oferta_B	1	1616.jpg	7	866
021816	22:02:06	358705615	oferta_B	2	1650.jpg	6	878
021816	22:02:06	358705615	oferta_B	4	2000_.jpg	6	845
021816	22:03:01	358705615	oferta_B	6	2111.jpg	11	2288
021816	22:03:01	358705615	oferta_B	5	2050_.jpg	10	2054
021816	22:03:01	358705615	oferta_B	2	1650.jpg	9	1749
021816	22:03:01	358705615	oferta_B	4	2000_.jpg	9	2102
021816	22:03:01	358705615	oferta_B	3	1721_.jpg	10	2993
021816	22:03:01	358705615	oferta_B	1	1616.jpg	6	3271
021816	22:03:52	358705615	oferta_B	2	1650.jpg	7	988
021816	22:03:52	358705615	oferta_B	3	1721_.jpg	6	1491
021816	22:03:52	358705615	oferta_B	1	1616.jpg	5	1596
021816	22:03:52	358705615	oferta_B	4	2000_.jpg	8	1667
021816	22:03:52	358705615	oferta_B	5	2050_.jpg	7	1673
021816	22:03:52	358705615	oferta_B	6	2111.jpg	11	1946
021816	22:04:54	358705615	oferta_A	4	2018_.jpg	5	1988
021816	22:04:54	358705615	oferta_A	1	1600.jpg	3	1792
021816	22:04:54	358705615	oferta_A	2	1650_.jpg	4	1706
021816	22:04:54	358705615	oferta_A	5	2054.jpg	2	4431
021816	22:04:54	358705615	oferta_A	3	1700_.jpg	3	5039
021816	22:04:54	358705615	oferta_A	6	2100.jpg	1	3093
021816	22:05:46	358705615	oferta_C	3	1700.jpg	6	4859
021816	22:05:46	358705615	oferta_C	1	1616_.jpg	4	4263
021816	22:05:46	358705615	oferta_C	4	2018.jpg	2	2968
021816	22:05:46	358705615	oferta_C	2	1659.jpg	2	6427
021816	22:05:46	358705615	oferta_C	6	2100_.jpg	11	3664
021816	22:05:46	358705615	oferta_C	5	2054_.jpg	11	1278
021816	22:06:46	358705615	oferta_B	6	2111.jpg	7	1881
021816	22:06:46	358705615	oferta_B	4	2000_.jpg	6	2117
021816	22:06:46	358705615	oferta_B	5	2050_.jpg	6	2757
021816	22:06:46	358705615	oferta_B	1	1616.jpg	3	3176
021816	22:06:46	358705615	oferta_B	3	1721_.jpg	4	3469
021816	22:06:46	358705615	oferta_B	2	1650.jpg	3	2637
021816	22:07:44	358705615	oferta_D	2	1659_.jpg	3	1931
021816	22:07:44	358705615	oferta_D	4	2000.jpg	7	3050
021816	22:07:44	358705615	oferta_D	6	2111_.jpg	9	2412
021816	22:07:44	358705615	oferta_D	5	2050.jpg	7	3479
021816	22:07:44	358705615	oferta_D	3	1721.jpg	5	2106
021816	22:07:44	358705615	oferta_D	1	1600_.jpg	3	2405
021816	12:26:21	3780488	oferta_D	4	2000.jpg	10	2697
021816	12:26:21	3780488	oferta_D	5	2050.jpg	11	4085
021816	12:26:21	3780488	oferta_D	3	1721.jpg	7	4653
021816	12:26:21	3780488	oferta_D	1	1600_.jpg	1	2566
021816	12:26:21	3780488	oferta_D	6	2111_.jpg	11	2054
021816	12:26:21	3780488	oferta_D	2	1659_.jpg	4	1901
021816	12:27:57	3780488	oferta_A	1	1600.jpg	7	3688
021816	12:27:57	3780488	oferta_A	3	1700_.jpg	8	1698
021816	12:27:57	3780488	oferta_A	6	2100.jpg	10	1144
021816	12:27:57	3780488	oferta_A	5	2054.jpg	10	1829
021816	12:27:57	3780488	oferta_A	2	1650_.jpg	2	2229
021816	12:27:57	3780488	oferta_A	4	2018_.jpg	9	2220
021816	12:28:41	3780488	oferta_B	4	2000_.jpg	5	3356
021816	12:28:41	3780488	oferta_B	6	2111.jpg	11	2443
021816	12:28:41	3780488	oferta_B	3	1721_.jpg	7	1209
021816	12:28:41	3780488	oferta_B	5	2050_.jpg	10	1275
021816	12:28:41	3780488	oferta_B	2	1650.jpg	2	1698
021816	12:28:41	3780488	oferta_B	1	1616.jpg	1	1400
021816	12:29:23	3780488	oferta_C	3	1700.jpg	6	1977
021816	12:29:23	3780488	oferta_C	6	2100_.jpg	11	1707
021816	12:29:23	3780488	oferta_C	4	2018.jpg	11	1112
021816	12:29:23	3780488	oferta_C	5	2054_.jpg	11	646
021816	12:29:23	3780488	oferta_C	2	1659.jpg	1	1385
021816	12:29:23	3780488	oferta_C	1	1616_.jpg	1	1355
021816	12:29:54	3780488	oferta_A	2	1650_.jpg	2	3258
021816	12:29:54	3780488	oferta_A	6	2100.jpg	11	1750
021816	12:29:54	3780488	oferta_A	3	1700_.jpg	6	1409
021816	12:29:54	3780488	oferta_A	1	1600.jpg	6	1099
021816	12:29:54	3780488	oferta_A	4	2018_.jpg	10	2410
021816	12:29:54	3780488	oferta_A	5	2054.jpg	10	930
021816	12:30:34	3780488	oferta_A	1	1600.jpg	1	1323
021816	12:30:34	3780488	oferta_A	4	2018_.jpg	10	1176
021816	12:30:34	3780488	oferta_A	2	1650_.jpg	2	1596
021816	12:30:34	3780488	oferta_A	3	1700_.jpg	6	1118
021816	12:30:34	3780488	oferta_A	5	2054.jpg	10	1612
021816	12:30:34	3780488	oferta_A	6	2100.jpg	11	894
021816	12:31:05	3780488	oferta_A	5	2054.jpg	10	1986
021816	12:31:05	3780488	oferta_A	4	2018_.jpg	10	1227
021816	12:31:05	3780488	oferta_A	1	1600.jpg	1	1252
021816	12:31:05	3780488	oferta_A	2	1650_.jpg	2	1181
021816	12:31:05	3780488	oferta_A	3	1700_.jpg	6	1392
021816	12:31:05	3780488	oferta_A	6	2100.jpg	10	939
021816	12:31:43	3780488	oferta_A	2	1650_.jpg	1	1925
021816	12:31:43	3780488	oferta_A	5	2054.jpg	9	1761
021816	12:31:43	3780488	oferta_A	6	2100.jpg	10	1098
021816	12:31:43	3780488	oferta_A	1	1600.jpg	1	1178
021816	12:31:43	3780488	oferta_A	3	1700_.jpg	6	1598
021816	12:31:43	3780488	oferta_A	4	2018_.jpg	11	1575
021816	12:32:13	3780488	oferta_A	5	2054.jpg	11	2766
021816	12:32:13	3780488	oferta_A	4	2018_.jpg	11	654
021816	12:32:13	3780488	oferta_A	1	1600.jpg	1	1368
021816	12:32:13	3780488	oferta_A	3	1700_.jpg	6	1291
021816	12:32:13	3780488	oferta_A	2	1650_.jpg	1	2090
021816	12:32:13	3780488	oferta_A	6	2100.jpg	11	935
021816	12:32:42	3780488	oferta_C	2	1659.jpg	1	2615
021816	12:32:42	3780488	oferta_C	4	2018.jpg	10	1230
021816	12:32:42	3780488	oferta_C	3	1700.jpg	6	1288
021816	12:32:42	3780488	oferta_C	1	1616_.jpg	1	1550
021816	12:32:42	3780488	oferta_C	5	2054_.jpg	10	1234
021816	12:32:42	3780488	oferta_C	6	2100_.jpg	11	1131
021816	12:33:30	3780488	oferta_D	4	2000.jpg	9	1913
021816	12:33:30	3780488	oferta_D	3	1721.jpg	6	989
021816	12:33:30	3780488	oferta_D	6	2111_.jpg	11	1384
021816	12:33:30	3780488	oferta_D	2	1659_.jpg	2	1363
021816	12:33:30	3780488	oferta_D	5	2050.jpg	11	1719
021816	12:33:30	3780488	oferta_D	1	1600_.jpg	1	1339
012016	12:53:56	415145017	oferta_A	5	2054.jpg	6	5747
012016	12:53:56	415145017	oferta_A	2	1650_.jpg	6	6526
012016	12:53:56	415145017	oferta_A	1	1600.jpg	5	7691
012016	12:53:56	415145017	oferta_A	4	2018_.jpg	7	4502
012016	12:53:56	415145017	oferta_A	3	1700_.jpg	6	2793
012016	12:53:56	415145017	oferta_A	6	2100.jpg	8	4294
021816	21:59:26	422283880	oferta_B	1	1616.jpg	6	7068
021816	21:59:26	422283880	oferta_B	3	1721_.jpg	8	3535
021816	21:59:26	422283880	oferta_B	4	2000_.jpg	10	3128
021816	21:59:26	422283880	oferta_B	2	1650.jpg	5	1871
021816	21:59:26	422283880	oferta_B	6	2111.jpg	10	4174
021816	21:59:26	422283880	oferta_B	5	2050_.jpg	10	1585
021816	22:00:46	422283880	oferta_C	4	2018.jpg	8	5760
021816	22:00:46	422283880	oferta_C	2	1659.jpg	4	3494
021816	22:00:46	422283880	oferta_C	5	2054_.jpg	9	3273
021816	22:00:46	422283880	oferta_C	1	1616_.jpg	4	2092
021816	22:00:46	422283880	oferta_C	6	2100_.jpg	10	3427
021816	22:00:46	422283880	oferta_C	3	1700.jpg	4	1824
021816	22:02:44	422283880	oferta_B	5	2050_.jpg	8	4298
021816	22:02:44	422283880	oferta_B	3	1721_.jpg	4	1795
021816	22:02:44	422283880	oferta_B	1	1616.jpg	3	3549
021816	22:02:44	422283880	oferta_B	4	2000_.jpg	7	3110
021816	22:02:44	422283880	oferta_B	2	1650.jpg	4	2667
021816	22:02:44	422283880	oferta_B	6	2111.jpg	9	2788
021816	22:04:42	422283880	oferta_C	6	2100_.jpg	7	13243
021816	22:04:42	422283880	oferta_C	2	1659.jpg	4	2294
021816	22:04:42	422283880	oferta_C	3	1700.jpg	5	1689
021816	22:04:42	422283880	oferta_C	1	1616_.jpg	4	1717
021816	22:04:42	422283880	oferta_C	5	2054_.jpg	8	1526
021816	22:04:42	422283880	oferta_C	4	2018.jpg	9	5756
021816	22:06:02	422283880	oferta_B	5	2050_.jpg	3	4184
021816	22:06:02	422283880	oferta_B	1	1616.jpg	7	5069
021816	22:06:02	422283880	oferta_B	2	1650.jpg	5	1854
021816	22:06:02	422283880	oferta_B	4	2000_.jpg	7	1856
021816	22:06:02	422283880	oferta_B	3	1721_.jpg	5	2971
021816	22:06:02	422283880	oferta_B	6	2111.jpg	8	2012
021816	22:06:58	422283880	oferta_B	4	2000_.jpg	5	1674
021816	22:06:58	422283880	oferta_B	5	2050_.jpg	8	3064
021816	22:06:58	422283880	oferta_B	6	2111.jpg	7	1917
021816	22:06:58	422283880	oferta_B	2	1650.jpg	4	2915
021816	22:06:58	422283880	oferta_B	3	1721_.jpg	6	2816
021816	22:06:58	422283880	oferta_B	1	1616.jpg	5	1489
021816	22:08:01	422283880	oferta_D	3	1721.jpg	5	3987
021816	22:08:01	422283880	oferta_D	4	2000.jpg	8	2191
021816	22:08:01	422283880	oferta_D	2	1659_.jpg	5	1843
021816	22:08:01	422283880	oferta_D	5	2050.jpg	9	1812
021816	22:08:01	422283880	oferta_D	1	1600_.jpg	5	1787
021816	22:08:01	422283880	oferta_D	6	2111_.jpg	9	1727
021816	22:09:04	422283880	oferta_A	5	2054.jpg	6	4746
021816	22:09:04	422283880	oferta_A	6	2100.jpg	5	2003
021816	22:09:04	422283880	oferta_A	4	2018_.jpg	7	3385
021816	22:09:04	422283880	oferta_A	2	1650_.jpg	3	1959
021816	22:09:04	422283880	oferta_A	3	1700_.jpg	3	3225
021816	22:09:04	422283880	oferta_A	1	1600.jpg	2	1936
021816	22:10:21	422283880	oferta_B	5	2050_.jpg	6	3196
021816	22:10:21	422283880	oferta_B	1	1616.jpg	5	2614
021816	22:10:21	422283880	oferta_B	6	2111.jpg	7	2252
021816	22:10:21	422283880	oferta_B	4	2000_.jpg	8	1854
021816	22:10:21	422283880	oferta_B	3	1721_.jpg	5	5960
021816	22:10:21	422283880	oferta_B	2	1650.jpg	3	2584
021816	22:11:15	422283880	oferta_B	6	2111.jpg	5	2346
021816	22:11:15	422283880	oferta_B	2	1650.jpg	4	1894
021816	22:11:15	422283880	oferta_B	3	1721_.jpg	5	1666
021816	22:11:15	422283880	oferta_B	1	1616.jpg	4	2067
021816	22:11:15	422283880	oferta_B	5	2050_.jpg	7	1750
021816	22:11:15	422283880	oferta_B	4	2000_.jpg	7	1733
020916	21:49:28	424497882	oferta_C	5	2054_.jpg	8	7284
020916	21:49:28	424497882	oferta_C	4	2018.jpg	7	5574
020916	21:49:28	424497882	oferta_C	6	2100_.jpg	9	3694
020916	21:49:28	424497882	oferta_C	3	1700.jpg	10	7715
020916	21:49:28	424497882	oferta_C	1	1616_.jpg	11	2722
020916	21:49:28	424497882	oferta_C	2	1659.jpg	11	2313
020916	21:53:03	424497882	oferta_C	6	2100_.jpg	8	8303
020916	21:53:03	424497882	oferta_C	3	1700.jpg	4	5342
020916	21:53:03	424497882	oferta_C	2	1659.jpg	4	3382
020916	21:53:03	424497882	oferta_C	1	1616_.jpg	3	2359
020916	21:53:03	424497882	oferta_C	5	2054_.jpg	7	3615
020916	21:53:03	424497882	oferta_C	4	2018.jpg	7	1602
011616	13:52:30	431250230	oferta_D	3	1721.jpg	6	13158
011616	13:52:30	431250230	oferta_D	6	2111_.jpg	11	3631
011616	13:52:30	431250230	oferta_D	5	2050.jpg	9	4042
011616	13:52:30	431250230	oferta_D	4	2000.jpg	8	1991
011616	13:52:30	431250230	oferta_D	1	1600_.jpg	1	2277
011616	13:52:30	431250230	oferta_D	2	1659_.jpg	3	3359
021816	13:22:54	453070904	oferta_A	1	1600.jpg	6	2303
021816	13:22:54	453070904	oferta_A	5	2054.jpg	7	2599
021816	13:22:54	453070904	oferta_A	3	1700_.jpg	7	2323
021816	13:22:54	453070904	oferta_A	4	2018_.jpg	7	3474
021816	13:22:54	453070904	oferta_A	6	2100.jpg	8	1722
021816	13:22:54	453070904	oferta_A	2	1650_.jpg	6	1378
021816	13:26:10	453070904	oferta_B	3	1721_.jpg	7	1252
021816	13:26:10	453070904	oferta_B	5	2050_.jpg	6	983
021816	13:26:10	453070904	oferta_B	1	1616.jpg	7	1516
021816	13:26:10	453070904	oferta_B	6	2111.jpg	8	1076
021816	13:26:10	453070904	oferta_B	4	2000_.jpg	7	534
021816	13:26:10	453070904	oferta_B	2	1650.jpg	5	5654
012016	16:54:59	466484157	oferta_D	3	1721.jpg	5	14090
012016	16:54:59	466484157	oferta_D	6	2111_.jpg	9	5219
012016	16:54:59	466484157	oferta_D	4	2000.jpg	7	2681
012016	16:54:59	466484157	oferta_D	5	2050.jpg	7	3104
012016	16:54:59	466484157	oferta_D	1	1600_.jpg	4	2675
012016	16:54:59	466484157	oferta_D	2	1659_.jpg	4	1869
020416	10:11:19	471419140	oferta_C	3	1700.jpg	5	3151
020416	10:11:19	471419140	oferta_C	1	1616_.jpg	4	4950
020416	10:11:19	471419140	oferta_C	5	2054_.jpg	10	3062
020416	10:11:19	471419140	oferta_C	2	1659.jpg	10	2947
020416	10:11:19	471419140	oferta_C	4	2018.jpg	9	4714
020416	10:11:19	471419140	oferta_C	6	2100_.jpg	11	1275
011616	14:01:52	488273604	oferta_D	4	2000.jpg	8	7423
011616	14:01:52	488273604	oferta_D	6	2111_.jpg	10	2789
011616	14:01:52	488273604	oferta_D	1	1600_.jpg	7	2140
011616	14:01:52	488273604	oferta_D	5	2050.jpg	7	2545
011616	14:01:52	488273604	oferta_D	3	1721.jpg	5	2956
011616	14:01:52	488273604	oferta_D	2	1659_.jpg	8	5488
011616	14:09:57	488273604	oferta_B	6	2111.jpg	8	5680
011616	14:09:57	488273604	oferta_B	1	1616.jpg	5	3739
011616	14:09:57	488273604	oferta_B	5	2050_.jpg	9	2077
011616	14:09:57	488273604	oferta_B	2	1650.jpg	4	1958
011616	14:09:57	488273604	oferta_B	3	1721_.jpg	5	3016
011616	14:09:57	488273604	oferta_B	4	2000_.jpg	8	2256
020916	21:28:34	489894613	oferta_A	5	2054.jpg	5	3175
020916	21:28:34	489894613	oferta_A	2	1650_.jpg	5	3922
020916	21:28:34	489894613	oferta_A	4	2018_.jpg	6	1550
020916	21:28:34	489894613	oferta_A	3	1700_.jpg	5	2912
020916	21:28:34	489894613	oferta_A	1	1600.jpg	5	2775
020916	21:28:34	489894613	oferta_A	6	2100.jpg	7	1988
011616	05:43:08	512154914	oferta_A	6	2100.jpg	6	11413
011616	05:43:08	512154914	oferta_A	3	1700_.jpg	4	1620
011616	05:43:08	512154914	oferta_A	1	1600.jpg	4	1404
011616	05:43:08	512154914	oferta_A	2	1650_.jpg	5	2299
011616	05:43:08	512154914	oferta_A	5	2054.jpg	7	3327
011616	05:43:08	512154914	oferta_A	4	2018_.jpg	7	2058
020416	01:53:00	569462472	oferta_C	6	2100_.jpg	8	3938
020416	01:53:00	569462472	oferta_C	3	1700.jpg	5	2855
020416	01:53:00	569462472	oferta_C	4	2018.jpg	8	3314
020416	01:53:00	569462472	oferta_C	5	2054_.jpg	9	2316
020416	01:53:00	569462472	oferta_C	1	1616_.jpg	3	2141
020416	01:53:00	569462472	oferta_C	2	1659.jpg	2	2993
021116	12:46:28	594604547	oferta_C	3	1700.jpg	4	3961
021116	12:46:28	594604547	oferta_C	5	2054_.jpg	6	2821
021116	12:46:28	594604547	oferta_C	4	2018.jpg	6	2195
021116	12:46:28	594604547	oferta_C	6	2100_.jpg	7	3650
021116	12:46:28	594604547	oferta_C	2	1659.jpg	6	3308
021116	12:46:28	594604547	oferta_C	1	1616_.jpg	6	2197
011916	17:49:16	604017481	oferta_D	4	2000.jpg	6	2484
011916	17:49:16	604017481	oferta_D	5	2050.jpg	7	1828
011916	17:49:16	604017481	oferta_D	3	1721.jpg	5	1812
011916	17:49:16	604017481	oferta_D	2	1659_.jpg	4	1456
011916	17:49:16	604017481	oferta_D	6	2111_.jpg	8	2579
011916	17:49:16	604017481	oferta_D	1	1600_.jpg	4	1368
021816	13:27:10	614176649	oferta_A	4	2018_.jpg	8	3568
021816	13:27:10	614176649	oferta_A	2	1650_.jpg	4	1828
021816	13:27:10	614176649	oferta_A	5	2054.jpg	7	2391
021816	13:27:10	614176649	oferta_A	3	1700_.jpg	6	1029
021816	13:27:10	614176649	oferta_A	6	2100.jpg	8	1992
021816	13:27:10	614176649	oferta_A	1	1600.jpg	4	2253
021816	13:27:43	614176649	oferta_B	5	2050_.jpg	8	1305
021816	13:27:43	614176649	oferta_B	3	1721_.jpg	7	1969
021816	13:27:43	614176649	oferta_B	6	2111.jpg	9	2055
021816	13:27:43	614176649	oferta_B	1	1616.jpg	4	2065
021816	13:27:43	614176649	oferta_B	2	1650.jpg	5	1147
021816	13:27:43	614176649	oferta_B	4	2000_.jpg	6	1666
020416	13:54:10	628355394	oferta_A	5	2054.jpg	9	6211
020416	13:54:10	628355394	oferta_A	4	2018_.jpg	9	3853
020416	13:54:10	628355394	oferta_A	1	1600.jpg	8	1958
020416	13:54:10	628355394	oferta_A	3	1700_.jpg	8	1785
020416	13:54:10	628355394	oferta_A	2	1650_.jpg	7	3843
020416	13:54:10	628355394	oferta_A	6	2100.jpg	9	2213
021316	01:04:01	649472755	oferta_B	5	2050_.jpg	6	7355
021316	01:04:01	649472755	oferta_B	2	1650.jpg	7	2768
021316	01:04:01	649472755	oferta_B	3	1721_.jpg	7	3199
021316	01:04:01	649472755	oferta_B	4	2000_.jpg	8	1881
021316	01:04:01	649472755	oferta_B	6	2111.jpg	8	2528
021316	01:04:01	649472755	oferta_B	1	1616.jpg	6	2366
012016	11:55:39	667485691	oferta_C	3	1700.jpg	1	5412
012016	11:55:39	667485691	oferta_C	6	2100_.jpg	1	2021
012016	11:55:39	667485691	oferta_C	5	2054_.jpg	1	2084
012016	11:55:39	667485691	oferta_C	1	1616_.jpg	1	1242
012016	11:55:39	667485691	oferta_C	4	2018.jpg	1	2947
012016	11:55:39	667485691	oferta_C	2	1659.jpg	1	1051
020816	17:42:36	670081819	oferta_D	5	2050.jpg	7	5626
020816	17:42:36	670081819	oferta_D	1	1600_.jpg	8	4045
020816	17:42:36	670081819	oferta_D	4	2000.jpg	9	2833
020816	17:42:36	670081819	oferta_D	3	1721.jpg	7	3177
020816	17:42:36	670081819	oferta_D	2	1659_.jpg	8	3706
020816	17:42:36	670081819	oferta_D	6	2111_.jpg	9	4045
021516	16:02:03	716867278	oferta_C	2	1659.jpg	6	8217
021516	16:02:03	716867278	oferta_C	5	2054_.jpg	7	6012
021516	16:02:03	716867278	oferta_C	4	2018.jpg	6	6773
021516	16:02:03	716867278	oferta_C	6	2100_.jpg	8	4139
021516	16:02:03	716867278	oferta_C	3	1700.jpg	4	2245
021516	16:02:03	716867278	oferta_C	1	1616_.jpg	5	2738
021116	21:29:09	749489353	oferta_A	6	2100.jpg	7	6339
021116	21:29:09	749489353	oferta_A	5	2054.jpg	8	3628
021116	21:29:09	749489353	oferta_A	4	2018_.jpg	5	3433
021116	21:29:09	749489353	oferta_A	1	1600.jpg	5	3299
021116	21:29:09	749489353	oferta_A	3	1700_.jpg	4	1559
021116	21:29:09	749489353	oferta_A	2	1650_.jpg	7	1732
021916	13:45:06	778936654	oferta_A	6	2100.jpg	7	1524
021916	13:45:06	778936654	oferta_A	1	1600.jpg	6	1188
021916	13:45:06	778936654	oferta_A	4	2018_.jpg	8	1889
021916	13:45:06	778936654	oferta_A	3	1700_.jpg	7	2546
021916	13:45:06	778936654	oferta_A	5	2054.jpg	7	1896
021916	13:45:06	778936654	oferta_A	2	1650_.jpg	5	2457
012116	17:38:36	818993238	oferta_A	4	2018_.jpg	8	4451
012116	17:38:36	818993238	oferta_A	3	1700_.jpg	6	6392
012116	17:38:36	818993238	oferta_A	6	2100.jpg	10	3248
012116	17:38:36	818993238	oferta_A	5	2054.jpg	11	1697
012116	17:38:36	818993238	oferta_A	1	1600.jpg	8	2302
012116	17:38:36	818993238	oferta_A	2	1650_.jpg	9	1811
013016	16:01:01	832433166	oferta_B	6	2111.jpg	4	5226
013016	16:01:01	832433166	oferta_B	3	1721_.jpg	4	3372
013016	16:01:01	832433166	oferta_B	2	1650.jpg	4	3572
013016	16:01:01	832433166	oferta_B	5	2050_.jpg	7	3173
013016	16:01:01	832433166	oferta_B	1	1616.jpg	4	2216
013016	16:01:01	832433166	oferta_B	4	2000_.jpg	6	2177
012716	19:21:53	882127405	oferta_A	4	2018_.jpg	8	10296
012716	19:21:53	882127405	oferta_A	2	1650_.jpg	7	3447
012716	19:21:53	882127405	oferta_A	6	2100.jpg	7	4640
012716	19:21:53	882127405	oferta_A	5	2054.jpg	6	2726
012716	19:21:53	882127405	oferta_A	3	1700_.jpg	4	3403
012716	19:21:53	882127405	oferta_A	1	1600.jpg	3	5817
021816	13:28:44	90635813	oferta_D	6	2111_.jpg	9	3594
021816	13:28:44	90635813	oferta_D	1	1600_.jpg	4	1661
021816	13:28:44	90635813	oferta_D	2	1659_.jpg	5	4200
021816	13:28:44	90635813	oferta_D	4	2000.jpg	7	2570
021816	13:28:44	90635813	oferta_D	3	1721.jpg	7	3752
021816	13:28:44	90635813	oferta_D	5	2050.jpg	8	1437
021816	13:29:24	90635813	oferta_B	4	2000_.jpg	7	2325
021816	13:29:24	90635813	oferta_B	6	2111.jpg	9	1580
021816	13:29:24	90635813	oferta_B	5	2050_.jpg	8	1322
021816	13:29:24	90635813	oferta_B	2	1650.jpg	5	1681
021816	13:29:24	90635813	oferta_B	1	1616.jpg	4	2090
021816	13:29:24	90635813	oferta_B	3	1721_.jpg	7	2001
021816	13:29:55	90635813	oferta_D	4	2000.jpg	8	1719
021816	13:29:55	90635813	oferta_D	1	1600_.jpg	4	2054
021816	13:29:55	90635813	oferta_D	6	2111_.jpg	9	1616
021816	13:29:55	90635813	oferta_D	3	1721.jpg	7	2133
021816	13:29:55	90635813	oferta_D	2	1659_.jpg	4	1930
021816	13:29:55	90635813	oferta_D	5	2050.jpg	7	1489
021816	13:32:31	90635813	oferta_D	2	1659_.jpg	4	2042
021816	13:32:31	90635813	oferta_D	5	2050.jpg	7	1589
021816	13:32:31	90635813	oferta_D	1	1600_.jpg	5	2002
021816	13:32:31	90635813	oferta_D	4	2000.jpg	8	1357
021816	13:32:31	90635813	oferta_D	3	1721.jpg	7	1236
021816	13:32:31	90635813	oferta_D	6	2111_.jpg	10	2199
020916	22:10:07	915727615	oferta_B	1	1616.jpg	6	4561
020916	22:10:07	915727615	oferta_B	4	2000_.jpg	6	4245
020916	22:10:07	915727615	oferta_B	6	2111.jpg	6	3987
020916	22:10:07	915727615	oferta_B	3	1721_.jpg	6	4894
020916	22:10:07	915727615	oferta_B	5	2050_.jpg	9	2798
020916	22:10:07	915727615	oferta_B	2	1650.jpg	6	1893
020416	11:47:24	932218129	oferta_D	5	2050.jpg	3	4459
020416	11:47:24	932218129	oferta_D	4	2000.jpg	7	4489
020416	11:47:24	932218129	oferta_D	2	1659_.jpg	5	3894
020416	11:47:24	932218129	oferta_D	1	1600_.jpg	3	2522
020416	11:47:24	932218129	oferta_D	6	2111_.jpg	8	2876
020416	11:47:24	932218129	oferta_D	3	1721.jpg	6	4129
020816	20:22:20	980692821	oferta_C	5	2054_.jpg	9	4178
020816	20:22:20	980692821	oferta_C	6	2100_.jpg	8	2527
020816	20:22:20	980692821	oferta_C	1	1616_.jpg	4	2594
020816	20:22:20	980692821	oferta_C	2	1659.jpg	3	1471
020816	20:22:20	980692821	oferta_C	4	2018.jpg	7	2423
020816	20:22:20	980692821	oferta_C	3	1700.jpg	5	1738
